time(ms),accX(G),accY(G),accZ(G)
1.071,0.99121,-0.00317,0.05005
1.994,0.9917,0.0022,0.05688
2.913,0.97534,-0.00098,0.0498
3.832,0.9646,-0.00122,0.04199
4.751,0.98438,0.00244,0.05469
5.67,0.99902,0.00342,0.06396
6.589,0.97314,0.0,0.05957
7.508,0.96143,0.00195,0.04639
8.427,0.98315,0.00024,0.04419
9.353,1.00903,-0.0022,0.05786
10.272,1.02051,-0.01294,0.06152
11.191,1.00049,-0.0166,0.05176
12.11,0.96362,-0.00342,0.06177
13.029,0.96362,-0.00342,0.06177
13.948,0.96167,0.01001,0.07959
14.867,0.97876,0.01636,0.0918
15.786,0.98193,0.00635,0.08936
16.708,0.99048,-0.00342,0.06079
17.626,0.99756,-0.01001,0.05347
18.545,0.9917,-0.00635,0.07104
19.466,0.97681,0.00122,0.06982
20.385,0.96631,-0.00073,0.06055
21.304,0.97339,-0.00293,0.05811
22.223,1.00757,0.0,0.06299
23.142,1.0105,0.00781,0.06958
24.061,0.98511,0.00244,0.073
24.979,0.98511,0.00244,0.073
25.898,0.97949,0.00049,0.07373
26.818,0.98853,0.00342,0.0686
27.737,0.99438,-0.00342,0.07031
28.655,0.97852,-0.00537,0.07104
29.568,0.98047,-0.00562,0.06592
30.494,0.98853,-0.00293,0.07153
31.412,0.98779,0.00269,0.07153
32.331,0.97266,0.0,0.06567
33.254,0.96069,-0.00513,0.07007
34.173,0.98071,-0.00488,0.06885
35.091,0.99829,-0.01196,0.07227
36.01,0.99023,-0.01587,0.07764
36.929,0.99023,-0.01587,0.07764
37.848,0.97534,-0.00562,0.0708
38.767,0.97681,0.00537,0.06812
39.691,0.99194,0.0083,0.06738
40.609,0.98975,-0.00098,0.06592
41.528,0.97339,-0.00391,0.06323
42.454,0.97192,-0.00098,0.06592
43.373,0.98853,-0.00269,0.07812
44.291,1.00146,-0.00635,0.08228
45.21,0.97705,-0.00903,0.06714
46.129,0.96143,-0.00342,0.05811
47.051,0.98267,0.00854,0.06812
47.97,1.00098,0.00732,0.08325
48.889,1.00195,-0.00366,0.07886
49.808,1.00195,-0.00366,0.07886
50.73,0.98853,-0.00488,0.06104
51.649,0.98315,-0.00391,0.06348
52.568,0.99146,0.00244,0.07471
53.494,0.98486,0.00806,0.07935
54.413,0.9646,0.00049,0.07959
55.331,0.95483,-0.00098,0.0752
56.254,0.98169,0.00439,0.07666
57.173,0.9978,0.00195,0.07837
58.091,0.97656,0.0,0.06519
59.01,0.96118,0.00269,0.0564
59.929,0.9856,0.00391,0.05688
60.848,1.01245,-0.00635,0.06909
61.767,1.01245,-0.00635,0.06909
62.691,1.01538,-0.0083,0.0686
63.609,0.99585,-0.00122,0.0564
64.528,0.97437,0.00342,0.06592
65.454,0.98096,0.01636,0.08008
66.373,0.98315,0.01758,0.08105
67.291,0.97656,-0.00269,0.0708
68.21,0.97949,-0.01709,0.06738
69.129,1.00244,-0.01196,0.06128
70.051,1.00146,0.00049,0.0647
70.97,0.96777,0.0061,0.06714
71.889,0.95361,0.00732,0.05591
72.808,0.97754,0.01123,0.0603
73.73,0.97754,0.01123,0.0603
74.649,1.00903,-0.00342,0.07764
75.568,1.00122,-0.01367,0.08594
76.494,0.98071,-0.00635,0.06982
77.413,0.98047,-0.00195,0.06616
78.331,0.97412,-0.00049,0.08154
79.254,0.97363,-0.00244,0.08276
80.173,0.97437,-0.00269,0.07178
81.091,0.97412,0.00073,0.06348
82.01,0.98267,0.01196,0.07031
82.929,0.98145,0.01196,0.07397
83.848,0.97534,-0.00073,0.06152
84.767,0.97437,-0.00977,0.05371
85.691,0.99341,-0.01978,0.06226
86.609,0.99341,-0.01978,0.06226
87.528,1.01489,-0.01782,0.07544
88.454,0.99487,-0.00391,0.07593
89.373,0.96851,0.00391,0.06787
90.291,0.98657,0.00854,0.06152
91.21,1.00146,0.00537,0.07031
92.129,0.99414,-0.01196,0.07422
93.051,0.98071,-0.0083,0.0647
93.97,0.96338,0.00781,0.07227
94.889,0.97949,0.01147,0.0791
95.808,0.99683,0.01123,0.0791
96.73,0.97266,0.00513,0.0686
97.649,0.96143,-0.00171,0.06079
98.568,0.96143,-0.00171,0.06079
99.494,0.98364,-0.00269,0.05859
100.413,0.99658,0.00049,0.05884
101.331,0.98926,-0.00098,0.06348
102.254,0.98828,-0.00684,0.05908
103.173,0.98535,-0.00928,0.06787
104.091,0.98486,0.00342,0.07935
105.01,0.97827,0.00757,0.08154
105.929,0.95728,0.01074,0.07153
106.848,0.97314,0.01294,0.06665
107.767,1.00269,-0.00366,0.07056
108.691,0.99829,-0.0083,0.06616
109.609,0.99048,-0.00317,0.05542
110.528,0.99048,-0.00317,0.05542
111.454,0.97583,-0.00317,0.05005
112.373,0.96875,-0.00684,0.05542
113.291,0.99121,-0.00171,0.07007
114.21,0.99609,0.00317,0.07324
115.129,0.98218,0.0,0.05493
116.051,0.98438,0.00049,0.05786
116.97,0.98535,0.00854,0.07983
117.889,0.97778,0.00708,0.08276
118.808,0.97778,-0.00415,0.07129
119.73,0.98779,-0.00903,0.07251
120.649,0.98877,-0.01294,0.07373
121.568,0.98218,-0.00269,0.06567
122.494,0.96582,0.00732,0.05688
123.413,0.96582,0.00732,0.05688
124.331,0.95728,0.00171,0.052
125.254,0.98291,0.00073,0.05713
126.173,1.00391,-0.00732,0.05908
127.091,1.00317,-0.0144,0.06055
128.01,0.98633,-0.00757,0.06372
128.929,0.97388,0.00391,0.05933
129.848,0.97583,0.00928,0.06958
130.767,0.98608,0.01245,0.07959
131.691,0.98364,0.00415,0.07031
132.609,0.98145,-0.00244,0.05713
133.528,0.98535,0.00049,0.0625
134.454,0.97778,0.00244,0.0708
135.373,0.97778,0.00244,0.0708
136.291,0.97412,0.00244,0.06641
137.21,0.99121,-0.00366,0.06177
138.129,1.00708,-0.00659,0.05835
139.051,0.99585,-0.0061,0.06323
139.97,0.98535,-0.00024,0.06641
140.889,0.98071,0.00635,0.06543
141.808,0.98169,0.00415,0.06567
142.73,0.99146,-0.00195,0.06763
143.649,0.99634,-0.00757,0.05981
144.568,0.98535,-0.00684,0.05835
145.494,0.96655,0.00391,0.07715
146.413,0.96729,0.00952,0.07617
147.331,0.96729,0.00952,0.07617
148.254,0.97119,0.00317,0.06274
149.173,0.97607,0.00146,0.05933
150.091,0.97949,-0.00269,0.05225
151.01,0.9873,-0.01074,0.05054
151.929,0.99561,-0.01025,0.06177
152.848,0.9917,-0.01099,0.06274
153.767,0.98315,-0.00293,0.052
154.691,0.98047,0.00562,0.06543
155.609,0.97095,0.0105,0.07935
156.528,0.9585,0.01953,0.07642
157.454,0.96802,0.0127,0.07397
158.373,0.9812,0.00244,0.06885
159.291,0.99243,-0.00049,0.05933
160.21,0.99243,-0.00049,0.05933
161.129,0.99756,-0.00073,0.05103
162.051,0.9834,-0.00098,0.04736
162.97,0.97192,-0.00391,0.05469
163.889,0.98657,0.00195,0.06714
164.808,0.99463,-0.00024,0.0708
165.73,0.99341,-0.00269,0.06616
166.649,0.9939,-0.00293,0.05933
167.568,0.98267,-0.01025,0.06274
168.494,0.97534,-0.00391,0.06445
169.413,0.97925,0.00635,0.0625
170.331,0.98608,0.00439,0.06445
171.254,0.98218,0.00122,0.06396
172.173,0.98218,0.00122,0.06396
173.091,0.97852,0.00781,0.06104
174.01,0.97656,0.00537,0.05908
174.929,0.97119,0.00342,0.05566
175.848,0.98291,0.00293,0.05347
176.767,0.99365,-0.00806,0.05078
177.691,0.99658,-0.01099,0.05762
178.609,0.99414,-0.01001,0.07202
179.528,0.98047,-0.00806,0.07715
180.454,0.97559,-0.00659,0.073
181.373,0.98096,0.00366,0.06738
182.291,0.98438,0.00317,0.06885
183.21,0.98511,-0.00464,0.07275
184.129,0.98511,-0.00464,0.07275
185.051,0.98608,0.00244,0.07202
185.97,0.98291,-0.00317,0.06494
186.889,0.97876,0.00049,0.05933
187.808,0.97534,0.00854,0.05542
188.73,0.98096,0.00049,0.05737
189.649,0.99512,-0.00488,0.0564
190.568,1.00122,-0.00342,0.05225
191.494,0.99194,-0.00098,0.05542
192.413,0.97607,0.00562,0.05908
193.331,0.98169,0.00269,0.0647
194.254,0.9834,-0.00903,0.06934
195.173,0.97607,-0.00928,0.07275
196.091,0.98389,-0.00122,0.06689
197.01,0.98389,-0.00122,0.06689
197.929,0.97461,0.00317,0.06274
198.848,0.95557,0.00293,0.06421
199.767,0.97437,0.00464,0.05835
200.691,0.98828,0.00195,0.05298
201.609,0.97729,-0.00391,0.04883
202.528,0.99097,-0.01074,0.04834
203.454,0.99951,-0.00537,0.05225
204.373,0.98193,-0.00269,0.06519
205.291,0.97583,-0.00391,0.07202
206.21,0.98779,-0.00146,0.06372
207.129,0.98901,-0.00342,0.07056
208.051,0.98022,0.00366,0.07983
208.97,0.98022,0.00366,0.07983
209.889,0.9873,0.00513,0.06934
210.808,0.98682,-0.00269,0.06763
211.73,0.98047,-0.0061,0.07178
212.649,0.98242,-0.00366,0.06567
213.568,0.97217,0.00757,0.05933
214.494,0.97217,0.01392,0.05859
215.413,0.98926,0.00122,0.05762
216.331,0.99365,-0.01025,0.05566
217.254,0.99463,-0.0061,0.05249
218.173,0.98926,-0.01074,0.05664
219.091,0.97949,-0.01001,0.06494
220.01,0.97046,-0.00049,0.07104
220.929,0.97046,-0.00049,0.07104
221.848,0.96533,0.0083,0.07764
222.767,0.98413,0.01025,0.07056
223.691,0.99976,-0.00488,0.06274
224.609,0.9856,-0.00586,0.0625
225.528,0.97656,0.00439,0.05493
226.454,0.979,0.00537,0.052
227.373,0.9834,-0.00537,0.05762
228.291,0.99487,-0.00903,0.05322
229.21,1.00244,-0.00586,0.04956
230.129,0.98926,-0.00122,0.06006
231.051,0.96826,0.01099,0.07275
231.97,0.97192,0.0144,0.07666
232.889,0.98267,0.00977,0.07227
233.808,0.98267,0.00977,0.07227
234.73,0.99097,-0.00317,0.06445
235.649,0.99976,-0.01514,0.05713
236.568,0.99487,-0.01318,0.0564
237.494,0.98413,0.00146,0.05273
238.413,0.96655,0.00708,0.05029
239.331,0.95557,0.00684,0.05396
240.254,0.96948,0.00391,0.05786
241.173,0.99902,-0.00732,0.05762
242.091,1.0083,-0.00537,0.05103
243.01,0.9939,-0.00439,0.05176
243.929,0.98169,-0.0083,0.05518
244.848,0.97485,-0.00244,0.05859
245.767,0.97485,-0.00244,0.05859
246.691,0.97485,-0.00024,0.06616
247.609,0.98071,-0.00391,0.07153
248.528,0.98486,-0.0022,0.073
249.454,0.98315,0.00244,0.07349
250.373,0.98169,0.00195,0.06519
251.291,0.97168,-0.00073,0.05786
252.21,0.9729,-0.00342,0.05054
253.129,0.99243,-0.0105,0.05396
254.051,0.9978,-0.00684,0.06274
254.97,0.98364,0.00171,0.06519
255.889,0.97998,0.00562,0.07471
256.808,0.9856,0.00562,0.07471
257.73,0.9856,0.00562,0.07471
258.649,0.99731,-0.00635,0.06348
259.568,0.99805,-0.0166,0.06299
260.494,0.99146,-0.0144,0.06714
261.413,0.99561,-0.0105,0.06958
262.331,0.98315,0.00024,0.07202
263.254,0.96973,0.00586,0.06885
264.173,0.96851,0.0061,0.06323
265.091,0.97168,0.00928,0.05542
266.01,0.97534,0.00122,0.05249
266.929,0.99048,-0.00342,0.04688
267.848,1.00049,-0.00952,0.05151
268.767,0.99268,-0.01465,0.0603
269.691,0.99146,-0.00781,0.06494
270.609,0.99146,-0.00781,0.06494
271.528,0.9834,0.00122,0.07788
272.454,0.9729,0.00684,0.08594
273.373,0.98169,0.00977,0.0813
274.291,0.99683,0.00732,0.0686
275.21,0.99951,-0.00098,0.06055
276.129,0.99561,-0.00781,0.04834
277.051,0.98413,-0.00171,0.04419
277.97,0.9729,0.00562,0.05347
278.889,0.97729,0.00415,0.05762
279.808,0.98071,0.00024,0.05981
280.73,0.98901,-0.00562,0.05762
281.649,0.99683,-0.00708,0.05493
282.568,0.99683,-0.00708,0.05493
283.494,0.98682,0.00024,0.05762
284.413,0.97827,0.00659,0.06299
285.331,0.97119,0.00342,0.06152
286.254,0.97729,-0.00366,0.05957
287.173,0.99658,-0.01001,0.05713
288.091,0.99072,-0.00635,0.05322
289.01,0.96948,0.00952,0.05591
289.929,0.96655,0.01685,0.05786
290.848,0.96533,0.01001,0.06006
291.767,0.96851,0.00195,0.05664
292.691,0.99072,-0.0127,0.05322
293.609,1.0022,-0.01538,0.0564
294.528,1.0022,-0.01538,0.0564
295.454,0.99219,-0.00073,0.06152
296.373,0.98218,0.00317,0.06543
297.291,0.96973,0.00171,0.07056
298.21,0.9729,-0.00195,0.06348
299.129,0.99536,-0.00488,0.05713
300.051,0.99854,-0.00439,0.07422
300.97,0.98413,-0.00708,0.07886
301.889,0.97339,-0.00171,0.06567
302.808,0.97461,0.00024,0.05737
303.73,0.98438,-0.00488,0.05591
304.649,0.97998,-0.00269,0.05835
305.568,0.9668,0.00439,0.05859
306.494,0.98169,0.00342,0.05615
307.413,0.98169,0.00342,0.05615
308.331,1.00244,-0.00537,0.05933
309.254,0.99854,-0.01172,0.05981
310.173,0.98804,-0.0144,0.05713
311.091,0.99365,-0.00415,0.05322
312.01,0.9873,0.00098,0.06006
312.929,0.9812,0.00537,0.07764
313.848,0.98267,0.01147,0.08228
314.767,0.97192,0.00977,0.07007
315.691,0.97583,0.01685,0.05884
316.609,0.98535,0.01074,0.052
317.528,0.97998,-0.00269,0.05249
318.454,0.98096,-0.00879,0.05322
319.373,0.98096,-0.00879,0.05322
320.291,0.99487,-0.01099,0.05444
321.21,0.99585,-0.00195,0.06738
322.129,0.99414,0.00366,0.06567
323.051,0.9834,0.0022,0.05786
323.97,0.96899,0.00806,0.05591
324.889,0.98486,0.00195,0.05811
325.808,0.9978,-0.01074,0.06738
326.73,0.98999,-0.0105,0.0647
327.649,0.98218,-0.01196,0.04907
328.568,0.97729,-0.00073,0.04639
329.494,0.97144,0.01172,0.06494
330.413,0.97021,0.01025,0.0708
331.331,0.97412,0.00586,0.06201
332.254,0.97412,0.00586,0.06201
333.173,0.99585,0.00195,0.05176
334.091,1.01367,-0.00098,0.05298
335.01,0.99341,-0.00562,0.06909
335.929,0.97217,-0.00146,0.06738
336.848,0.9729,-0.00342,0.06104
337.767,0.98584,-0.00439,0.06836
338.691,0.99878,-0.00073,0.07031
339.609,0.99414,-0.00562,0.06421
340.528,0.97583,0.00049,0.05981
341.454,0.97046,0.00464,0.05176
342.373,0.97949,-0.0022,0.05371
343.291,0.99048,-0.00732,0.06396
344.21,0.99048,-0.00732,0.06396
345.129,1.0022,-0.01074,0.06006
346.051,0.99585,-0.0083,0.04639
346.97,0.98608,-0.00122,0.05322
347.889,0.98242,0.01025,0.06787
348.808,0.9812,0.00806,0.06909
349.73,0.98755,-0.00439,0.06689
350.649,0.99634,-0.01074,0.06226
351.568,0.99731,-0.01221,0.06299
352.494,0.97803,-0.00537,0.06738
353.413,0.96094,0.00439,0.06787
354.331,0.96655,0.00513,0.06226
355.254,0.98438,0.00244,0.05688
356.173,0.98438,0.00244,0.05688
357.091,0.9939,0.00244,0.05542
358.01,0.99487,0.00537,0.05615
358.929,0.99341,0.00513,0.05884
359.848,0.98242,-0.0061,0.06177
360.767,0.97681,-0.0061,0.06299
361.691,0.98291,-0.00562,0.06177
362.609,0.98486,-0.00586,0.06738
363.528,0.98975,-0.00024,0.07031
364.454,0.98779,-0.00146,0.073
365.373,0.96826,0.00415,0.07178
366.291,0.96362,0.00195,0.06152
367.21,0.97925,0.00122,0.05396
368.129,0.9895,0.00317,0.04565
369.051,0.9895,0.00317,0.04565
369.97,0.99048,-0.00195,0.05029
370.889,0.9873,0.00317,0.04883
371.808,0.98999,0.00244,0.05005
372.73,0.99585,0.00122,0.06226
373.649,0.98511,0.00317,0.06592
374.568,0.97314,-0.00146,0.06421
375.494,0.97632,-0.00146,0.06128
376.413,1.00049,-0.00098,0.05884
377.331,1.01392,-0.00903,0.06055
378.254,0.98706,-0.01001,0.05884
379.173,0.97681,-0.00415,0.052
380.091,0.98022,0.00928,0.05884
381.01,0.98022,0.00928,0.05884
381.929,0.97339,0.01221,0.06958
382.848,0.9834,-0.00244,0.07373
383.767,0.99854,-0.00952,0.06226
384.691,0.99707,-0.01587,0.04883
385.609,0.9917,-0.01318,0.05957
386.528,0.98364,0.00073,0.05811
387.454,0.96826,-0.00024,0.05127
388.373,0.96973,-0.00293,0.06152
389.291,0.9895,-0.00195,0.06689
390.21,0.99805,-0.0022,0.0647
391.129,0.98853,0.00146,0.05469
392.051,0.97363,0.00049,0.05103
392.97,0.97363,0.00049,0.05103
393.889,0.96948,-0.00122,0.05273
394.808,0.98242,-0.00024,0.05273
395.73,0.99609,-0.00562,0.0564
396.649,1.00073,-0.00562,0.04932
397.568,0.98926,0.00464,0.04785
398.494,0.97534,0.01465,0.06299
399.413,0.98096,0.01294,0.06592
400.331,0.98071,0.0022,0.06128
401.254,0.97485,-0.00732,0.05591
402.173,0.99438,-0.01489,0.0542
403.091,1.0061,-0.00415,0.06274
404.01,0.98218,0.00488,0.06543
404.929,0.95801,0.01074,0.06055
405.848,0.95801,0.01074,0.06055
406.767,0.96484,0.01929,0.0647
407.691,0.98779,0.00391,0.06445
408.609,1.0022,-0.00903,0.05005
409.528,1.00146,-0.01587,0.03735
410.454,0.98975,-0.01587,0.04297
411.373,0.9812,-0.00293,0.05493
412.291,0.96826,0.00488,0.05786
413.21,0.97095,0.01099,0.05713
414.129,0.98755,0.00977,0.06372
415.051,0.98901,0.00342,0.0647
415.97,0.99707,-0.00073,0.0603
416.889,0.98364,0.00244,0.05762
417.808,0.98364,0.00244,0.05762
418.73,0.96069,0.00073,0.04761
419.649,0.9751,-0.00024,0.05151
420.568,0.99463,0.00342,0.06104
421.494,0.99878,0.0,0.06274
422.413,0.99097,-0.00293,0.0542
423.331,0.98169,-0.00366,0.05176
424.254,0.97681,0.0,0.06421
425.173,0.98706,0.00464,0.06616
426.091,0.99316,0.00171,0.06274
427.01,0.97974,-0.00732,0.06738
427.929,0.98242,-0.00122,0.06836
428.848,0.9856,0.0061,0.07007
429.767,0.9856,0.0061,0.07007
430.691,0.97754,0.00342,0.06348
431.609,0.97021,0.00684,0.05176
432.528,0.96655,0.00903,0.05444
433.454,0.97998,0.00537,0.05908
434.373,0.99609,-0.00317,0.05933
435.291,1.00391,-0.00684,0.05005
436.21,0.99976,-0.00391,0.0498
437.129,0.98584,-0.00098,0.06396
438.051,0.9751,0.00146,0.07031
438.97,0.96436,0.00098,0.06567
439.889,0.97046,-0.00098,0.06519
440.808,0.99536,0.0,0.06543
441.73,1.00146,-0.00391,0.06982
442.649,1.00146,-0.00391,0.06982
443.568,0.98242,-0.00391,0.07324
444.494,0.9585,-0.00122,0.06494
445.413,0.9668,-0.00024,0.05688
446.331,0.98389,0.00317,0.05371
447.254,0.98242,-0.00293,0.05542
448.173,0.9873,-0.00659,0.05371
449.091,0.99487,0.00537,0.05566
450.01,0.99707,0.00781,0.06543
450.929,0.98364,-0.0022,0.06372
451.848,0.9751,-0.00952,0.05664
452.767,0.98486,-0.00415,0.06348
453.691,0.9917,0.00146,0.07104
454.609,0.9917,0.00146,0.07104
455.528,0.9939,-0.00366,0.07324
456.454,0.98267,0.00122,0.06543
457.373,0.96069,0.00635,0.05469
458.291,0.9668,0.00464,0.05859
459.21,0.99414,-0.00488,0.06421
460.129,0.99878,-0.00781,0.05444
461.051,0.98071,-0.00464,0.0376
461.97,0.979,-0.00391,0.04102
462.889,0.98608,0.00391,0.06079
463.808,0.98364,0.0083,0.07666
464.73,0.97461,0.00439,0.06885
465.649,0.97217,-0.0022,0.05469
466.568,0.97217,-0.0022,0.05469
467.494,0.99072,-0.00195,0.05957
468.413,0.99805,-0.00073,0.06641
469.331,0.98267,0.00293,0.06421
470.254,0.97046,0.00513,0.05322
471.173,0.97974,0.00513,0.04443
472.091,0.99634,0.00854,0.04688
473.01,0.99023,0.00464,0.05493
473.929,0.97998,0.00098,0.05127
474.848,0.98779,-0.00146,0.05176
475.767,0.99707,-0.00098,0.06689
476.691,0.98145,0.00146,0.06909
477.609,0.95776,0.00049,0.06714
478.528,0.97119,0.00586,0.05908
479.454,0.97119,0.00586,0.05908
480.373,0.99561,0.00366,0.05933
481.291,1.00049,-0.00146,0.06812
482.21,0.9812,0.00366,0.05713
483.129,0.96777,0.00317,0.04346
484.051,0.97314,-0.00098,0.04956
484.97,0.9873,-0.00562,0.05981
485.889,0.99951,-0.01562,0.05762
486.808,0.99023,-0.01807,0.05151
487.73,0.99121,-0.00586,0.04932
488.649,0.98413,0.00171,0.06006
489.568,0.97046,0.00732,0.07056
490.494,0.97388,0.00415,0.06958
491.413,0.97388,0.00415,0.06958
492.331,0.98145,-0.00269,0.06689
493.254,1.00342,0.0022,0.06104
494.173,1.01807,-0.00732,0.05591
495.091,0.9873,-0.01196,0.05664
496.01,0.95288,0.00439,0.05176
496.929,0.95801,0.01514,0.05884
497.848,0.98071,0.0144,0.06714
498.767,1.00391,0.00391,0.0603
499.691,1.00195,-0.00781,0.05151
500.609,0.98657,-0.00732,0.05127
501.528,0.99438,0.00244,0.05151
502.454,0.99414,0.01074,0.05103
503.373,0.99414,0.01074,0.05103
504.291,0.96997,-0.00073,0.05542
505.21,0.979,-0.01001,0.06006
506.129,1.00391,0.00195,0.07202
507.051,0.99097,0.01074,0.07178
507.97,0.96704,0.00977,0.05566
508.889,0.95605,0.00146,0.04932
509.808,0.97437,-0.00757,0.04858
510.73,1.00977,-0.00977,0.052
511.649,1.00488,-0.00537,0.052
512.568,0.97778,-0.00171,0.04346
513.494,0.97144,0.00317,0.04639
514.413,0.97705,0.0105,0.05298
515.331,0.97803,0.00342,0.06152
516.254,0.97803,0.00342,0.06152
517.173,0.98682,-0.00952,0.06274
518.091,0.99194,-0.00806,0.05566
519.01,0.99414,0.00146,0.06567
519.929,1.00391,0.0061,0.07178
520.848,0.97559,-0.00098,0.06226
521.767,0.95215,0.0,0.0459
522.691,0.97485,0.00464,0.0415
523.609,1.00317,0.00122,0.05444
524.528,0.99976,-0.00195,0.05981
525.454,0.98755,-0.01245,0.05298
526.373,0.98364,-0.0144,0.04272
527.291,0.98486,-0.0061,0.05615
528.21,0.98486,-0.0061,0.05615
529.129,0.98389,0.00269,0.07349
530.051,0.96997,0.00049,0.06982
530.97,0.97534,-0.00586,0.06348
531.889,1.00586,-0.00391,0.06152
532.808,1.01343,0.00098,0.06152
533.73,0.98584,0.0022,0.05786
534.649,0.96655,-0.00464,0.05103
535.568,0.97852,0.00269,0.04956
536.494,1.00464,0.00586,0.05469
537.413,0.99634,0.00195,0.06079
538.331,0.96655,0.00317,0.06201
539.254,0.97656,-0.00024,0.05957
540.173,0.97656,-0.00024,0.05957
541.091,1.00122,-0.00146,0.05786
542.01,0.98389,-0.00073,0.06201
542.929,0.9646,-0.00098,0.06714
543.848,0.97998,0.00122,0.05957
544.767,1.00122,0.00122,0.05908
545.691,1.00049,-0.0022,0.06519
546.609,0.97559,-0.00098,0.05811
547.528,0.9585,-0.00049,0.05029
548.454,0.97217,0.00659,0.05835
549.373,0.99316,0.00488,0.06616
550.291,0.98438,-0.00757,0.06201
551.21,0.97632,-0.01831,0.05518
552.129,0.9873,-0.01172,0.04858
553.051,0.9873,-0.01172,0.04858
553.97,0.99609,-0.00098,0.05835
554.889,0.98291,0.00146,0.07007
555.808,0.96362,0.00464,0.06567
556.73,0.97461,-0.00146,0.06445
557.649,0.99414,0.0,0.07007
558.568,0.99561,0.00024,0.06738
559.494,0.98242,-0.00464,0.05054
560.413,0.96338,-0.00415,0.04932
561.331,0.97852,-0.00171,0.06152
562.254,1.01343,-0.00439,0.05762
563.173,1.00049,-0.00171,0.05347
564.091,0.97461,0.00146,0.05396
565.01,0.97461,0.00146,0.05396
565.929,0.98022,0.00439,0.05786
566.848,0.98511,0.00903,0.06372
567.767,0.97388,-0.0022,0.06958
568.691,0.9729,-0.00903,0.06445
569.609,0.98096,-0.00757,0.05078
570.528,0.99414,-0.00513,0.0542
571.454,0.99023,0.00684,0.05591
572.373,0.96338,0.01367,0.04907
573.291,0.95679,0.0105,0.04834
574.21,0.98755,0.00757,0.04712
575.129,1.00757,-0.00659,0.05298
576.051,0.98975,-0.01587,0.052
576.97,0.98975,-0.01587,0.052
577.889,0.98047,-0.00781,0.04663
578.808,0.98022,0.00317,0.05078
579.73,0.98071,0.00635,0.06006
580.649,0.97314,0.00122,0.06616
581.568,0.97021,0.00391,0.06006
582.494,0.98999,0.00195,0.05664
583.413,1.00439,-0.00293,0.05933
584.331,0.99219,-0.00269,0.06104
585.254,0.96753,-0.00464,0.05127
586.173,0.96313,-0.00366,0.04736
587.091,0.97729,-0.00439,0.05591
588.01,0.99707,-0.0022,0.06348
588.929,0.99683,0.00342,0.06079
589.848,0.99683,0.00342,0.06079
590.767,0.98804,0.00854,0.04883
591.691,0.99048,0.00415,0.04834
592.609,1.00146,-0.00415,0.05762
593.528,0.98828,-0.00537,0.06006
594.454,0.96558,-0.00708,0.06421
595.373,0.97729,-0.00171,0.07031
596.291,0.99878,0.00098,0.06836
597.21,0.99463,0.00537,0.05933
598.129,0.95947,0.00537,0.0564
599.051,0.94922,-0.00024,0.05859
599.97,0.98535,-0.00146,0.06201
600.889,1.00488,-0.00781,0.06396
601.808,1.00488,-0.00781,0.06396
602.73,0.99561,-0.01025,0.05249
603.649,0.98682,-0.00391,0.05444
604.568,0.98682,0.00342,0.06299
605.494,0.99609,0.00464,0.0625
606.413,0.98779,0.00073,0.06519
607.331,0.97314,-0.00195,0.06689
608.254,0.98755,0.00146,0.06421
609.173,1.00488,0.00171,0.06543
610.091,0.99756,-0.00293,0.06616
611.01,0.97095,-0.00684,0.05298
611.929,0.95752,-0.00171,0.04785
612.848,0.97119,0.00293,0.06543
613.767,0.97119,0.00293,0.06543
614.691,0.9978,-0.00293,0.073
615.609,0.99854,-0.01025,0.05298
616.528,0.98242,-0.01147,0.0415
617.454,0.98901,-0.00903,0.05469
618.373,0.99512,-0.0061,0.06519
619.291,0.98267,-0.00049,0.06348
620.21,0.96997,0.00024,0.05127
621.129,0.98633,0.00171,0.05249
622.051,1.00635,0.00122,0.07202
622.97,0.99292,0.00415,0.07422
623.889,0.95483,0.00928,0.05859
624.808,0.95239,0.00732,0.04712
625.73,0.99097,-0.00391,0.04858
626.649,0.99097,-0.00391,0.04858
627.568,1.0105,-0.01147,0.05078
628.494,1.00195,-0.01123,0.0481
629.413,0.98364,-0.00317,0.04321
630.331,0.97363,0.01074,0.05029
631.254,0.97437,0.01172,0.06299
632.173,0.96851,0.00635,0.06421
633.091,0.97168,-0.00415,0.0542
634.01,0.98853,-0.01025,0.04736
634.929,0.9978,-0.00757,0.06226
635.848,0.98535,0.00171,0.06226
636.767,0.95776,0.01001,0.0459
637.691,0.95093,0.00757,0.052
638.609,0.95093,0.00757,0.052
639.528,0.98608,0.00439,0.05664
640.454,1.01343,0.0022,0.05371
641.373,0.99341,-0.00415,0.05078
642.291,0.97363,-0.0105,0.04761
643.21,0.98389,-0.00757,0.05518
644.129,0.99976,-0.00537,0.06226
645.051,0.98291,-0.00366,0.05859
645.97,0.97461,0.00415,0.05054
646.889,0.99097,0.00732,0.05298
647.808,0.9939,0.00464,0.06958
648.73,0.98193,0.00342,0.07129
649.649,0.96118,0.00537,0.06128
650.568,0.96118,0.00537,0.06128
651.494,0.95972,0.00464,0.05664
652.413,0.99146,-0.00244,0.05273
653.331,1.00195,-0.01416,0.05127
654.254,0.98755,-0.01807,0.05347
655.173,0.98047,-0.00513,0.05566
656.091,0.97534,0.00513,0.05591
657.01,0.98193,0.00073,0.0625
657.929,0.98022,-0.00488,0.06543
658.848,0.9751,-0.00757,0.05762
659.767,0.98975,-0.00806,0.0647
660.691,1.00586,-0.00244,0.07349
661.609,0.98364,0.0,0.06812
662.528,0.95142,0.00317,0.05884
663.454,0.95142,0.00317,0.05884
664.373,0.9585,0.00781,0.05518
665.291,0.98364,0.00537,0.06201
666.21,1.00952,-0.00293,0.06348
667.129,1.00439,-0.01099,0.0437
668.051,0.98804,-0.00269,0.03442
668.97,0.99243,0.00049,0.05005
669.889,0.99268,-0.00244,0.0603
670.808,0.97778,-0.00122,0.06714
671.73,0.97168,-0.00391,0.06226
672.649,0.9856,-0.00317,0.05786
673.568,0.99976,0.00195,0.06299
674.494,0.98486,-0.00024,0.06372
675.413,0.98486,-0.00024,0.06372
676.331,0.95654,0.00293,0.05542
677.254,0.96265,0.0083,0.04956
678.173,0.99414,-0.00073,0.05103
679.091,1.00586,-0.00732,0.06079
680.01,0.98511,-0.00415,0.06372
680.929,0.97949,0.00073,0.05103
681.848,0.99219,0.00342,0.04443
682.767,0.99316,-0.00098,0.05933
683.691,0.98071,-0.00342,0.06812
684.609,0.98071,-0.00024,0.06177
685.528,0.99634,-0.00586,0.06641
686.454,0.99805,-0.00391,0.06958
687.373,0.97192,0.00732,0.06763
688.291,0.97192,0.00732,0.06763
689.21,0.94629,0.0188,0.06396
690.129,0.96436,0.02222,0.04712
691.051,0.99805,0.0083,0.04272
691.97,1.00586,-0.00684,0.05029
692.889,0.99438,-0.01099,0.04492
693.808,0.98462,-0.00562,0.03687
694.73,0.99023,0.00342,0.04565
695.649,0.99365,0.00635,0.05908
696.568,0.97363,0.01025,0.05713
697.494,0.96387,0.01099,0.0498
698.413,0.99365,0.00781,0.04614
699.331,1.01025,0.00854,0.06177
700.254,1.01025,0.00854,0.06177
701.173,0.98926,-0.00464,0.06909
702.091,0.9624,-0.01001,0.05591
703.01,0.96265,0.00049,0.05054
703.929,0.98975,0.00415,0.05615
704.848,0.99414,0.00342,0.05786
705.767,0.97778,-0.00049,0.04834
706.691,0.98608,-0.00049,0.03564
707.609,0.9978,0.00049,0.04395
708.528,0.98657,0.00244,0.06152
709.454,0.9707,-0.00098,0.05762
710.373,0.97217,-0.00879,0.05298
711.291,0.9917,-0.00806,0.06274
712.21,0.9917,-0.00806,0.06274
713.129,0.99829,-0.00635,0.06372
714.051,0.97754,-0.00464,0.05688
714.97,0.94434,0.0083,0.06177
715.889,0.95459,0.0144,0.0564
716.808,0.98999,0.00903,0.05103
717.73,0.99731,-0.00415,0.05054
718.649,1.0,-0.02173,0.03955
719.568,0.98975,-0.0188,0.04077
720.494,0.97852,-0.00635,0.05762
721.413,0.98657,0.00781,0.06787
722.331,0.9751,0.01343,0.06616
723.254,0.97168,0.00952,0.06104
724.173,0.99927,-0.00024,0.06592
725.091,0.99927,-0.00024,0.06592
726.01,1.00269,-0.0083,0.07446
726.929,0.99072,-0.00293,0.06519
727.848,0.98438,-0.00366,0.04565
728.767,0.97339,-0.00513,0.03931
729.691,0.97485,-0.00049,0.05566
730.609,0.9895,0.00024,0.06152
731.528,0.98047,-0.00195,0.05664
732.454,0.97363,-0.00342,0.05518
733.373,0.9917,-0.00195,0.05469
734.291,0.98853,-0.00952,0.06763
735.21,0.97046,-0.0083,0.06982
736.129,0.98804,-0.00244,0.06543
737.051,0.98804,-0.00244,0.06543
737.97,1.00464,-0.00342,0.07397
738.889,0.9812,-0.00146,0.07422
739.808,0.9668,-0.00317,0.06226
740.73,0.95874,0.00464,0.05688
741.649,0.97119,0.0105,0.0542
742.568,0.99854,0.00244,0.04932
743.494,1.00073,-0.0022,0.04688
744.413,0.98853,-0.00244,0.04785
745.331,0.98315,0.00879,0.04907
746.254,0.98389,0.01392,0.05029
747.173,0.97949,0.00269,0.05591
748.091,0.97925,-0.00488,0.05566
749.01,0.97925,-0.00488,0.05566
749.929,0.98071,0.00049,0.05127
750.848,0.99438,0.00317,0.05615
751.767,0.99561,-0.00952,0.07349
752.691,0.979,-0.01709,0.06616
753.609,0.97144,-0.00952,0.04443
754.528,0.96875,0.0,0.05347
755.454,0.97583,0.00098,0.05981
756.373,0.98804,0.00098,0.052
757.291,0.99023,-0.00195,0.0481
758.21,0.98779,0.00293,0.04346
759.129,0.9873,0.00537,0.04468
760.051,0.98364,-0.00464,0.05591
760.97,0.97461,-0.00391,0.06226
761.889,0.97461,-0.00391,0.06226
762.808,0.97119,-0.00342,0.06714
763.73,0.98682,-0.00293,0.07227
764.649,0.99023,-0.00024,0.06494
765.568,0.97729,-0.00269,0.05493
766.494,0.97241,0.00732,0.0498
767.413,0.97681,0.01221,0.05371
768.331,0.99268,0.00122,0.0542
769.254,1.00513,-0.0083,0.04663
770.173,1.00098,-0.00659,0.04199
771.091,0.98901,0.00073,0.04468
772.01,0.97876,0.00903,0.0603
772.929,0.9729,0.01685,0.06885
773.848,0.9729,0.01685,0.06885
774.767,0.98169,0.01294,0.06738
775.691,1.0,-0.00391,0.0603
776.609,1.00415,-0.00806,0.05151
777.528,0.98315,-0.00049,0.0603
778.454,0.96533,0.00562,0.06079
779.373,0.96899,0.01343,0.05176
780.291,0.96826,0.0127,0.05566
781.21,0.97681,0.00513,0.0603
782.129,1.00098,-0.00293,0.05103
783.051,0.99512,-0.00464,0.03516
783.97,0.97192,-0.00244,0.0415
784.889,0.97241,-0.00537,0.05176
785.808,0.97241,-0.00537,0.05176
786.73,0.98535,-0.00439,0.05444
787.649,0.98926,-0.00244,0.05957
788.568,0.99292,-0.00439,0.06543
789.494,0.98901,-0.00171,0.06982
790.413,0.97754,0.00073,0.06592
791.331,0.97607,0.00098,0.05908
792.254,0.97144,0.00171,0.0564
793.173,0.98047,-0.00708,0.05518
794.091,0.99414,-0.01221,0.05298
795.01,0.99561,-0.00293,0.05737
795.929,0.9873,0.00781,0.06104
796.848,0.97144,0.00537,0.06006
797.767,0.97095,0.00195,0.05396
798.691,0.97095,0.00195,0.05396
799.609,0.98706,-0.00293,0.05225
800.528,0.99438,-0.01074,0.05664
801.454,0.98438,-0.01196,0.06006
802.373,0.98096,-0.01074,0.06567
803.291,0.97656,-0.00391,0.06494
804.21,0.97021,-0.00513,0.06006
805.129,0.97559,-0.00098,0.05396
806.051,0.97998,0.00562,0.05273
806.97,0.98828,0.00659,0.05444
807.889,0.99707,0.01001,0.05151
808.808,0.99438,0.00537,0.04858
809.73,0.9895,-0.00073,0.04517
810.649,0.9895,-0.00073,0.04517
811.568,0.99072,-0.00171,0.04614
812.494,0.99487,-0.0061,0.05225
813.413,0.98804,-0.00244,0.05786
814.331,0.98193,0.00757,0.06348
815.254,0.97974,0.00366,0.06787
816.173,0.97363,-0.00195,0.06665
817.091,0.97583,-0.0061,0.06299
818.01,0.97852,-0.00879,0.05518
818.929,0.98145,-0.00439,0.05469
819.848,0.98828,-0.0022,0.05078
820.767,0.99072,0.0,0.04248
821.691,0.98877,0.00342,0.04907
822.609,0.98877,0.00342,0.04907
823.528,0.97852,0.01172,0.05518
824.454,0.97021,0.01562,0.05444
825.373,0.97656,0.00684,0.05127
826.291,0.9856,0.00171,0.05396
827.21,0.98755,-0.0105,0.05908
828.129,0.98901,-0.01489,0.06104
829.051,0.99463,-0.00464,0.05957
829.97,0.98755,0.00342,0.05566
830.889,0.96411,0.01392,0.06006
831.808,0.96216,0.01514,0.05884
832.73,0.98779,0.00537,0.052
833.649,1.00342,-0.00562,0.04663
834.568,0.9978,-0.01123,0.04468
835.494,0.9978,-0.01123,0.04468
836.413,0.98169,-0.00146,0.04492
837.331,0.96899,0.00928,0.04663
838.254,0.97266,0.00708,0.06006
839.173,0.99048,0.00171,0.05981
840.091,0.99756,-0.00146,0.05811
841.01,0.98633,0.0022,0.05859
841.929,0.97974,0.00366,0.05859
842.848,0.97339,0.00317,0.06494
843.767,0.96753,-0.00269,0.05835
844.691,0.98145,-0.00879,0.0498
845.609,0.9895,-0.00391,0.05469
846.528,0.9895,0.00171,0.06396
847.454,0.9895,0.00171,0.06396
848.373,0.98438,0.00513,0.06738
849.291,0.96851,0.00513,0.05859
850.21,0.97192,0.00049,0.04932
851.129,0.99976,-0.00757,0.04688
852.051,1.01099,-0.01196,0.0459
852.97,0.99927,-0.00732,0.05469
853.889,0.98828,-0.00098,0.06274
854.808,0.96802,0.00781,0.06274
855.73,0.95801,0.00854,0.06738
856.649,0.97119,0.00269,0.06714
857.568,0.97998,0.00049,0.06055
858.494,0.9873,-0.00391,0.05322
859.413,0.9873,-0.00391,0.05322
860.331,1.00171,-0.01001,0.0542
861.254,1.00049,-0.00366,0.0564
862.173,0.97949,0.00171,0.05225
863.091,0.97412,-0.00488,0.05664
864.01,0.97974,-0.00073,0.05127
864.929,0.98511,0.00439,0.05005
865.848,0.99023,-0.00073,0.05786
866.767,0.98975,-0.00854,0.05981
867.691,0.98315,-0.00903,0.06348
868.609,0.97095,-0.00854,0.06616
869.528,0.97168,-0.00098,0.05664
870.454,0.97754,0.00562,0.05005
871.373,0.99463,0.00562,0.04663
872.291,0.99463,0.00562,0.04663
873.21,1.00684,0.0022,0.04419
874.129,1.0022,-0.00049,0.04956
875.051,0.98804,-0.0022,0.04663
875.97,0.97485,-0.00317,0.04785
876.889,0.9834,0.00293,0.05469
877.808,1.0,-0.00122,0.06177
878.73,0.99634,-0.01318,0.06006
879.649,0.97388,-0.01416,0.05493
880.568,0.96704,-0.00098,0.05542
881.494,0.97217,0.00854,0.05176
882.413,0.97852,0.00537,0.05127
883.331,0.97754,-0.00195,0.05371
884.254,0.97754,-0.00195,0.05371
885.173,0.98877,-0.00659,0.04907
886.091,0.99902,-0.00513,0.04932
887.01,0.98901,-0.00195,0.05347
887.929,0.96411,0.00415,0.0437
888.848,0.94971,0.01416,0.04785
889.767,0.97583,0.02051,0.05713
890.691,0.99927,0.00781,0.0564
891.609,0.99438,-0.01489,0.05835
892.528,0.99023,-0.01025,0.05151
893.454,0.98877,0.00122,0.04761
894.373,0.97778,0.00244,0.05054
895.291,0.98315,0.00464,0.05615
896.21,0.98315,0.00464,0.05615
897.129,0.98462,0.00269,0.05664
898.051,0.98364,-0.00049,0.05249
898.97,0.99756,-0.00317,0.05005
899.889,0.99097,-0.00537,0.04883
900.808,0.96704,-0.00342,0.05249
901.73,0.96924,-0.00488,0.0459
902.649,1.00122,-0.00635,0.05005
903.568,1.00781,0.00024,0.06177
904.494,0.98828,0.00317,0.06177
905.413,0.97021,0.00708,0.05908
906.331,0.95312,0.00562,0.07153
907.254,0.96411,0.00464,0.07617
908.173,0.99219,-0.00586,0.0564
909.091,0.99219,-0.00586,0.0564
910.01,0.99219,-0.02466,0.05542
910.929,0.98242,-0.01636,0.05103
911.848,0.99854,-0.00366,0.04517
912.767,0.98901,0.00049,0.0498
913.691,0.96143,0.00488,0.05078
914.609,0.96533,0.01074,0.05493
915.528,0.97754,0.00049,0.05737
916.454,0.99365,-0.01318,0.05664
917.373,0.9978,-0.01123,0.05518
918.291,0.97754,-0.01172,0.05249
919.21,0.97363,-0.00879,0.04639
920.129,0.98511,0.0,0.05151
921.051,0.98511,0.0,0.05151
921.97,0.98096,0.0061,0.05981
922.889,0.96924,0.00098,0.05737
923.808,0.97949,-0.00732,0.05005
924.73,1.00317,-0.00342,0.05249
925.649,1.00513,-0.00391,0.04761
926.568,0.97705,-0.00635,0.04663
927.494,0.95923,-0.00757,0.05591
928.413,0.97437,-0.00415,0.05591
929.331,0.98633,0.00269,0.06909
930.254,0.99634,-0.00684,0.06567
931.173,0.98828,-0.00439,0.0564
932.091,0.96655,0.00928,0.05566
933.01,0.96655,0.00928,0.05566
933.929,0.96777,0.00854,0.05225
934.848,0.98071,-0.0022,0.0603
935.767,0.9834,-0.0105,0.05542
936.691,0.98877,-0.00366,0.04565
937.609,1.00269,-0.00122,0.04712
938.528,0.9834,0.00146,0.05542
939.454,0.96094,0.01294,0.05469
940.373,0.96851,0.0083,0.05273
941.291,0.99097,0.00317,0.05908
942.21,1.00684,-0.00293,0.06079
943.129,0.99634,-0.01074,0.0564
944.051,0.97803,-0.00415,0.04883
944.97,0.98047,0.00439,0.05103
945.889,0.98047,0.00439,0.05103
946.808,0.98804,0.00244,0.05688
947.73,0.97974,-0.00244,0.05664
948.649,0.97461,-0.00049,0.04956
949.568,0.9834,-0.00073,0.04883
950.494,0.99292,0.00122,0.05566
951.413,0.98486,-0.00049,0.05615
952.331,0.96777,-0.00024,0.05566
953.254,0.97925,0.00537,0.05298
954.173,1.00586,-0.00049,0.05103
955.091,1.00635,-0.00879,0.05835
956.01,0.99121,-0.00562,0.05396
956.929,0.97998,0.00171,0.04321
957.848,0.97998,0.00171,0.04321
958.767,0.97266,0.00928,0.04639
959.691,0.98291,0.00757,0.05371
960.609,0.9939,-0.00635,0.05176
961.528,0.98315,-0.00952,0.04614
962.454,0.98413,-0.00293,0.04639
963.373,0.98779,0.00391,0.052
964.291,0.98291,0.00854,0.06519
965.21,0.98169,-0.00024,0.05688
966.129,0.98145,-0.0061,0.04956
967.051,0.99316,-0.00024,0.06421
967.97,0.99438,-0.00146,0.07031
968.889,0.99048,-0.00464,0.05957
969.808,0.99048,-0.00464,0.05957
970.73,0.98706,-0.00977,0.05029
971.649,0.97607,-0.00708,0.05103
972.568,0.98926,0.00366,0.05371
973.494,0.9939,0.00977,0.06274
974.413,0.98022,0.01172,0.05859
975.331,0.98511,-0.0022,0.04956
976.254,1.00073,-0.01196,0.05103
977.173,1.00342,-0.01025,0.04712
978.091,0.98071,-0.00171,0.03711
979.01,0.97437,0.00513,0.04834
979.929,0.98413,0.00659,0.06372
980.848,0.98169,0.0105,0.06616
981.767,0.97778,0.00415,0.06421
982.691,0.97778,0.00415,0.06421
983.609,0.97241,-0.00342,0.06006
984.528,0.97803,-0.00269,0.06055
985.454,0.98633,-0.00098,0.05737
986.373,0.98755,-0.00122,0.0564
987.291,0.9812,-0.00537,0.05615
988.21,0.98267,-0.0083,0.05444
989.129,0.98633,-0.00293,0.06104
990.051,0.97803,0.00391,0.0603
990.97,0.96411,0.00781,0.052
991.889,0.96924,0.01099,0.04565
992.808,0.99585,0.00024,0.0437
993.73,1.00635,-0.01172,0.05688
994.649,1.00635,-0.01172,0.05688
995.568,0.99609,-0.00854,0.05884
996.494,0.97021,0.00146,0.05737
997.413,0.95923,0.00732,0.06421
998.331,0.96509,0.00537,0.05908
999.254,0.98999,0.00098,0.04541
1000.173,0.99829,-0.00952,0.04541
1001.091,0.98706,-0.0105,0.04272
1002.01,0.99463,0.00049,0.03833
1002.929,0.99658,0.00635,0.04907
1003.848,0.97852,0.00659,0.05273
1004.767,0.97192,0.00708,0.05811
1005.691,0.99438,0.00269,0.07202
1006.609,0.99438,0.00269,0.07202
1007.528,1.0061,0.00391,0.07324
1008.454,0.98389,0.00952,0.05664
1009.373,0.9624,0.00366,0.0498
1010.291,0.97046,-0.00146,0.05322
1011.21,0.99048,-0.00488,0.05444
1012.129,0.99805,-0.00366,0.05518
1013.051,0.97168,0.00073,0.05444
1013.97,0.98511,-0.00146,0.052
1014.889,0.99854,-0.00391,0.05713
1015.808,0.97949,-0.0022,0.05371
1016.73,0.98755,-0.00317,0.04321
1017.649,0.99609,-0.00562,0.04248
1018.568,0.99438,-0.00049,0.05298
1019.494,0.99438,-0.00049,0.05298
1020.413,0.9917,0.00171,0.0686
1021.331,0.97144,-0.00049,0.06641
1022.254,0.95703,-0.00293,0.0564
1023.173,0.97314,-0.0022,0.05786
1024.091,1.00513,0.00195,0.05371
1025.01,0.99829,0.0,0.05566
1025.929,0.98071,-0.0127,0.05225
1026.848,0.98608,-0.01758,0.04907
1027.767,0.99194,-0.00586,0.05737
1028.691,0.99683,-0.00415,0.05664
1029.609,0.9668,-0.00317,0.05469
1030.528,0.96191,0.00537,0.05029
1031.454,0.96191,0.00537,0.05029
1032.373,0.99902,0.00513,0.05566
1033.291,1.01587,-0.00342,0.05786
1034.21,0.98755,-0.00708,0.04736
1035.129,0.95435,-0.00635,0.03833
1036.051,0.96216,-0.0022,0.04541
1036.97,0.9856,0.00879,0.06836
1037.889,0.98901,-0.00098,0.07007
1038.808,0.98511,-0.00659,0.05151
1039.73,0.99487,0.00342,0.04785
1040.649,0.99341,0.00562,0.05347
1041.568,0.97217,0.00317,0.05298
1042.494,0.9668,-0.0083,0.0437
1043.413,0.97314,-0.01294,0.04272
1044.331,0.97314,-0.01294,0.04272
1045.254,0.99878,-0.00537,0.0481
1046.173,1.01587,-0.0061,0.06152
1047.091,0.98511,0.00146,0.07324
1048.01,0.96069,0.01074,0.0542
1048.929,0.96069,0.01245,0.04443
1049.848,0.98657,0.00952,0.06299
1050.767,1.00513,-0.0022,0.05713
1051.691,1.0,-0.01587,0.0415
1052.609,0.99585,-0.01294,0.04321
1053.528,0.9895,0.00024,0.04517
1054.454,0.97681,0.00586,0.05151
1055.373,0.9646,0.01733,0.05884
1056.291,0.9646,0.01733,0.05884
1057.21,0.98242,0.0166,0.05469
1058.129,1.00537,0.00586,0.05103
1059.051,1.00488,-0.00562,0.06396
1059.97,0.98779,-0.00854,0.05859
1060.889,0.95728,-0.00171,0.04639
1061.808,0.96362,0.00342,0.06104
1062.73,0.99878,-0.00098,0.05908
1063.649,0.98975,-0.01172,0.04956
1064.568,0.96265,-0.00171,0.05518
1065.494,0.97656,0.02002,0.0564
1066.413,0.99194,0.01343,0.05298
1067.331,0.98755,-0.00366,0.04785
1068.254,0.98755,-0.00366,0.04785
1069.173,0.97583,-0.00977,0.04248
1070.091,0.98657,-0.01001,0.04517
1071.01,1.0022,-0.00049,0.05591
1071.929,0.98755,0.00854,0.06177
1072.848,0.95557,0.00146,0.06128
1073.767,0.9458,0.00464,0.052
1074.691,0.97925,0.01245,0.05176
1075.609,1.00317,0.00464,0.05469
1076.528,0.99683,-0.01172,0.04492
1077.454,0.97656,-0.02515,0.04297
1078.373,0.98486,-0.01318,0.04883
1079.291,0.99854,0.00635,0.05273
1080.21,0.98389,0.00903,0.06079
1081.129,0.98389,0.00903,0.06079
1082.051,0.96729,-0.00171,0.05933
1082.97,0.97925,-0.00708,0.04956
1083.889,1.00146,-0.00342,0.05151
1084.808,0.99878,0.00122,0.0625
1085.73,0.97632,-0.00439,0.05273
1086.649,0.95752,-0.01147,0.03979
1087.568,0.96875,-0.00122,0.04932
1088.494,0.99561,0.00928,0.05444
1089.413,0.98877,0.00659,0.06372
1090.331,0.97217,0.00195,0.05469
1091.254,0.98291,-0.00122,0.04224
1092.173,1.00659,-0.00562,0.05615
1093.091,1.00659,-0.00562,0.05615
1094.01,1.00098,-0.00806,0.06006
1094.929,0.97632,-0.00879,0.04956
1095.848,0.98071,-0.00244,0.04712
1096.767,1.00684,0.0022,0.0564
1097.691,1.00146,0.00195,0.05981
1098.609,0.96045,-0.00122,0.05249
1099.528,0.94824,-0.00073,0.0481
1100.454,0.97705,0.00562,0.05786
1101.373,0.99902,-0.00098,0.06592
1102.291,0.98999,-0.01025,0.05859
1103.21,0.98145,-0.0105,0.05176
1104.129,0.98071,-0.00415,0.05029
1105.051,0.98071,-0.00415,0.05029
1105.97,0.97388,0.00342,0.06055
1106.889,0.96753,0.00488,0.06226
1107.808,0.9707,-0.00049,0.05249
1108.73,0.98999,-0.00708,0.05322
1109.649,1.00903,-0.00879,0.0603
1110.568,1.00391,-0.00391,0.06055
1111.494,0.97681,0.00684,0.05176
1112.413,0.9519,0.01172,0.05371
1113.331,0.95898,0.00952,0.0625
1114.254,0.99121,0.00293,0.06567
1115.173,0.99927,-0.0105,0.05737
1116.091,0.97949,-0.01172,0.05005
1117.01,0.98145,-0.00293,0.05029
1117.929,0.98145,-0.00293,0.05029
1118.848,0.99536,-0.00391,0.05591
1119.767,0.98291,-0.0061,0.06079
1120.691,0.97144,-0.00439,0.05396
1121.609,0.98047,-0.0022,0.05444
1122.528,0.99951,0.00586,0.06909
1123.454,0.99487,0.0083,0.07153
1124.373,0.96533,0.00391,0.05811
1125.291,0.95093,-0.00366,0.05029
1126.21,0.97388,-0.00757,0.04932
1127.129,0.99927,-0.00635,0.04443
1128.051,0.98584,-0.00024,0.05103
1128.97,0.97974,0.0061,0.05029
1129.889,0.97974,0.0061,0.05029
1130.808,0.98389,0.0061,0.0498
1131.73,0.99438,0.00635,0.05908
1132.649,0.99097,0.00513,0.05811
1133.568,0.97925,0.00415,0.05127
1134.494,0.99316,-0.00488,0.05151
1135.413,1.00977,-0.01099,0.05542
1136.331,1.00024,-0.00854,0.04907
1137.254,0.979,-0.00366,0.03955
1138.173,0.97485,0.00659,0.03955
1139.091,0.97803,0.01587,0.0564
1140.01,0.9873,0.01172,0.06714
1140.929,0.98926,0.00146,0.06104
1141.848,0.98926,0.00146,0.06104
1142.767,0.98267,-0.00537,0.04858
1143.691,0.99146,-0.01025,0.04858
1144.609,0.99048,-0.00806,0.05933
1145.528,0.97144,-0.00269,0.06201
1146.454,0.98096,0.00244,0.04712
1147.373,0.99609,0.0022,0.04834
1148.291,1.00708,0.00049,0.06348
1149.21,1.0105,-0.00317,0.06128
1150.129,0.98389,-0.00537,0.05298
1151.051,0.96729,-0.0022,0.04785
1151.97,0.99097,-0.00391,0.05566
1152.889,0.99902,-0.00635,0.07104
1153.808,0.97461,-0.00024,0.0647
1154.73,0.97461,-0.00024,0.0647
1155.649,0.96484,0.00659,0.04883
1156.568,0.97729,0.01318,0.05151
1157.494,0.99316,0.01074,0.06006
1158.413,0.98926,0.00293,0.05884
1159.331,0.98022,-0.00269,0.04688
1160.254,1.00488,-0.00732,0.04785
1161.173,1.02319,-0.01221,0.06226
1162.091,0.98828,-0.00806,0.06665
1163.01,0.9502,0.0022,0.05859
1163.929,0.96118,0.00464,0.05737
1164.848,0.99316,0.00635,0.06763
1165.767,0.99878,0.00659,0.06714
1166.691,0.99878,0.00659,0.06714
1167.609,0.98193,-0.00049,0.05737
1168.528,0.98145,-0.00464,0.0498
1169.454,0.99341,0.0,0.04785
1170.373,0.98901,-0.00195,0.05298
1171.291,0.96216,-0.00659,0.052
1172.21,0.95288,-0.00513,0.05298
1173.129,0.98535,0.00464,0.06348
1174.051,1.00195,-0.00098,0.0708
1174.97,0.99268,-0.0105,0.06616
1175.889,0.97168,-0.00415,0.05542
1176.808,0.96509,0.00586,0.0498
1177.73,0.99438,0.00659,0.0564
1178.649,0.99438,0.00659,0.0564
1179.568,1.00464,-0.00366,0.07007
1180.494,0.97559,-0.00488,0.06543
1181.413,0.96069,0.00073,0.05054
1182.331,0.98438,0.00171,0.04492
1183.254,0.99951,-0.00342,0.05127
1184.173,0.98096,-0.00854,0.0542
1185.091,0.97266,-0.00928,0.04468
1186.01,0.99341,-0.00537,0.05078
1186.929,0.99902,-0.00781,0.06885
1187.848,0.97827,-0.00684,0.0708
1188.767,0.96289,-0.00073,0.052
1189.691,0.97144,0.00171,0.04053
1190.609,1.00391,0.00415,0.05078
1191.528,1.00391,0.00415,0.05078
1192.454,1.00659,-0.0022,0.05737
1193.373,0.979,-0.00635,0.04858
1194.291,0.97754,-0.00488,0.04565
1195.21,0.99463,0.0,0.05054
1196.129,0.9917,0.00024,0.05713
1197.051,0.96436,-0.00024,0.05957
1197.97,0.96265,0.00781,0.04565
1198.889,0.99536,0.00513,0.04468
1199.808,1.01318,-0.00171,0.05811
1200.73,0.99243,-0.00537,0.05225
1201.649,0.96411,-0.0083,0.04321
1202.568,0.96777,-0.00317,0.04321
1203.494,0.96777,-0.00317,0.04321
1204.413,1.0061,0.00391,0.05249
1205.331,1.00977,0.0022,0.05664
1206.254,0.97095,-0.00293,0.04443
1207.173,0.96875,0.00024,0.04053
1208.091,0.99316,0.01123,0.0481
1209.01,0.98706,0.00708,0.05615
1209.929,0.97217,-0.00806,0.0498
1210.848,0.97974,-0.01099,0.0376
1211.767,1.0022,-0.00879,0.04468
1212.691,1.01172,-0.00928,0.06714
1213.609,0.97363,0.00122,0.07251
1214.528,0.948,0.01318,0.06055
1215.454,0.948,0.01318,0.06055
1216.373,0.97705,0.00977,0.05273
1217.291,1.01416,-0.00464,0.05859
1218.21,1.01392,-0.01343,0.05591
1219.129,0.98706,-0.01123,0.04028
1220.051,0.97046,-0.00439,0.04565
1220.97,0.97949,0.00879,0.05981
1221.889,0.98877,0.00635,0.06714
1222.808,0.97876,-0.00415,0.05542
1223.73,0.97876,0.00122,0.03711
1224.649,0.99683,0.0,0.05371
1225.568,0.99072,-0.0022,0.07593
1226.494,0.97559,-0.00439,0.06641
1227.413,0.9751,-0.0127,0.05444
1228.331,0.9751,-0.0127,0.05444
1229.254,0.99268,-0.00586,0.04785
1230.173,1.01733,0.0022,0.05103
1231.091,0.99585,0.00122,0.06152
1232.01,0.96509,0.00586,0.05371
1232.929,0.97412,0.00928,0.04883
1233.848,0.99487,0.00024,0.05542
1234.767,0.99927,-0.01099,0.05371
1235.691,0.98389,-0.01001,0.04395
1236.609,0.96582,0.0,0.04321
1237.528,0.979,0.00537,0.06006
1238.454,0.99048,0.00537,0.06616
1239.373,0.97607,0.00342,0.05908
1240.291,0.97607,0.00342,0.05908
1241.21,0.98145,0.00049,0.04907
1242.129,1.00049,0.00073,0.04712
1243.051,1.00488,-0.00732,0.05591
1243.97,0.99243,-0.01562,0.05444
1244.889,0.97046,-0.01196,0.04614
1245.808,0.97241,-0.00488,0.0459
1246.73,0.99292,0.00659,0.05347
1247.649,0.98438,0.00757,0.05469
1248.568,0.96655,0.00439,0.05078
1249.494,0.98193,-0.00269,0.04102
1250.413,1.00806,-0.01196,0.04565
1251.331,1.0022,-0.01489,0.05688
1252.254,1.0022,-0.01489,0.05688
1253.173,0.98462,-0.00562,0.04053
1254.091,0.98193,0.01099,0.04102
1255.01,0.98462,0.01465,0.06299
1255.929,0.98584,0.00439,0.06934
1256.848,0.98584,-0.00488,0.05981
1257.767,0.98315,-0.00391,0.05054
1258.691,0.98462,0.00049,0.05005
1259.609,0.9812,-0.00244,0.04932
1260.528,0.9729,-0.0022,0.04663
1261.454,0.98145,0.00195,0.04663
1262.373,0.99438,-0.00073,0.04956
1263.291,1.00098,-0.00464,0.05469
1264.21,0.99023,-0.00269,0.06128
1265.129,0.99023,-0.00269,0.06128
1266.051,0.96704,0.00635,0.05493
1266.97,0.96362,0.00903,0.05469
1267.889,0.98389,-0.00244,0.06494
1268.808,1.01318,-0.01514,0.06226
1269.73,1.01025,-0.01611,0.04907
1270.649,0.97656,-0.00781,0.04517
1271.568,0.96387,0.00415,0.05713
1272.494,0.97046,0.00781,0.06934
1273.413,0.98096,0.00073,0.06372
1274.331,0.98853,-0.00708,0.05249
1275.254,1.00464,-0.01318,0.04614
1276.173,1.0105,-0.01343,0.05249
1277.091,1.0105,-0.01343,0.05249
1278.01,0.98389,-0.00366,0.06714
1278.929,0.96094,0.00366,0.06299
1279.848,0.96899,0.00586,0.05933
1280.767,0.98975,0.0,0.06079
1281.691,0.99634,-0.00024,0.05811
1282.609,0.98755,0.0061,0.05493
1283.528,0.96899,0.00439,0.0542
1284.454,0.96436,0.00439,0.05444
1285.373,0.98315,0.00342,0.05322
1286.291,1.00122,-0.00415,0.05151
1287.21,1.00342,-0.00122,0.03955
1288.129,0.99268,0.00952,0.0354
1289.051,0.99268,0.00952,0.0354
1289.97,0.97778,0.00903,0.05518
1290.889,0.97339,0.00684,0.06079
1291.808,0.97656,0.00635,0.04639
1292.73,0.9834,-0.00122,0.0459
1293.649,0.99878,-0.00757,0.05591
1294.568,1.00024,-0.01294,0.05322
1295.494,0.98145,-0.01318,0.04395
1296.413,0.97168,0.00098,0.04199
1297.331,0.97461,0.01172,0.04712
1298.254,0.97559,0.01074,0.05713
1299.173,0.97705,0.00879,0.05298
1300.091,0.97998,0.00635,0.04956
1301.01,0.99072,-0.00293,0.05249
1301.929,0.99072,-0.00293,0.05249
1302.848,1.00488,-0.01245,0.05054
1303.767,0.99194,-0.0166,0.04736
1304.691,0.97339,-0.01025,0.04565
1305.609,0.9729,0.00366,0.05054
1306.528,0.9812,0.01172,0.05908
1307.454,0.98804,0.0061,0.05908
1308.373,0.99268,-0.00488,0.0498
1309.291,0.99292,-0.00806,0.0459
1310.21,0.97827,-0.00708,0.05273
1311.129,0.97656,-0.00366,0.04834
1312.051,0.97949,-0.00269,0.04297
1312.97,0.979,0.00171,0.04517
1313.889,0.979,0.00171,0.04517
1314.808,0.99048,0.00488,0.04932
1315.73,1.00439,0.00122,0.0542
1316.649,0.99243,-0.00464,0.05493
1317.568,0.97095,-0.00391,0.05933
1318.494,0.97681,0.00757,0.05493
1319.413,0.9978,-0.00317,0.05664
1320.331,1.00464,-0.01904,0.06494
1321.254,0.97705,-0.01709,0.06396
1322.173,0.95239,-0.00977,0.05884
1323.091,0.96802,0.01099,0.05396
1324.01,0.98169,0.01367,0.06055
1324.929,0.98877,-0.00439,0.05933
1325.848,0.98877,-0.00439,0.05933
1326.767,1.0061,-0.01392,0.04126
1327.691,1.0022,-0.01196,0.03979
1328.609,0.99194,-0.00562,0.05908
1329.528,0.96973,0.00049,0.06421
1330.454,0.95093,0.00391,0.05444
1331.373,0.97681,-0.00049,0.05151
1332.291,1.00366,-0.00439,0.05469
1333.21,0.99927,-0.00659,0.05835
1334.129,0.99194,-0.00146,0.0437
1335.051,0.97876,0.00562,0.03638
1335.97,0.96753,0.00513,0.04932
1336.889,0.9834,0.00659,0.05933
1337.808,0.99585,0.0105,0.05688
1338.73,0.99585,0.0105,0.05688
1339.649,0.9939,-0.0022,0.05566
1340.568,0.9939,-0.00464,0.05933
1341.494,0.9834,0.00024,0.05688
1342.413,0.97681,-0.00366,0.05615
1343.331,0.98145,-0.00122,0.04395
1344.254,0.97852,0.00049,0.05151
1345.173,0.98608,0.00342,0.06543
1346.091,0.99536,0.00562,0.0542
1347.01,0.98462,0.00562,0.05029
1347.929,0.96851,0.00659,0.04834
1348.848,0.97412,-0.00024,0.05371
1349.767,0.98462,-0.00415,0.06543
1350.691,0.98462,-0.00415,0.06543
1351.609,0.99341,-0.00269,0.05322
1352.528,1.00146,-0.0061,0.04932
1353.454,0.9895,-0.00708,0.05103
1354.373,0.98608,-0.00708,0.04663
1355.291,0.97729,-0.00122,0.052
1356.21,0.96484,0.00293,0.05249
1357.129,0.97705,0.00098,0.04932
1358.051,0.99023,-0.00464,0.05664
1358.97,0.99805,-0.01001,0.06104
1359.889,0.99438,-0.00439,0.04565
1360.808,0.98657,0.0022,0.03931
1361.73,0.97461,0.00366,0.05176
1362.649,0.97461,0.00366,0.05176
1363.568,0.97363,0.00537,0.05688
1364.494,0.98511,0.00244,0.05347
1365.413,0.98755,-0.00586,0.05054
1366.331,0.99561,-0.00342,0.04639
1367.254,0.9978,0.00659,0.04565
1368.173,0.98145,0.00537,0.04395
1369.091,0.97021,0.00024,0.0481
1370.01,0.98145,0.00269,0.05566
1370.929,0.98828,0.00342,0.05884
1371.848,0.99561,0.00098,0.05396
1372.767,0.99023,0.00928,0.04834
1373.691,0.95679,0.01074,0.05396
1374.609,0.95459,0.00391,0.05371
1375.528,0.95459,0.00391,0.05371
1376.454,0.98438,0.00024,0.04736
1377.373,1.0022,-0.00391,0.04126
1378.291,1.00171,-0.01147,0.04443
1379.21,0.99219,-0.01465,0.05396
1380.129,0.96875,-0.0061,0.05566
1381.051,0.95117,0.00635,0.05664
1381.97,0.96753,0.00317,0.05469
1382.889,0.99146,-0.00757,0.04956
1383.808,0.99951,-0.0105,0.04907
1384.73,1.00269,-0.01196,0.05103
1385.649,0.9917,-0.00586,0.05029
1386.568,0.96777,-0.00098,0.06055
1387.494,0.96777,-0.00098,0.06055
1388.413,0.96167,0.00244,0.06641
1389.331,0.9856,0.00903,0.06372
1390.254,1.00366,0.00464,0.05786
1391.173,1.0,0.00317,0.052
1392.091,0.98511,0.00293,0.05298
1393.01,0.97876,-0.00537,0.05078
1393.929,0.98047,-0.00464,0.05151
1394.848,0.98877,-0.00122,0.04712
1395.767,1.00122,-0.00146,0.04565
1396.691,0.99536,0.00488,0.04932
1397.609,0.99316,0.00854,0.04858
1398.528,0.97827,0.00684,0.05518
1399.454,0.97827,0.00684,0.05518
1400.373,0.95874,0.00269,0.05615
1401.291,0.97095,-0.00415,0.05664
1402.21,1.0,0.00049,0.04492
1403.129,1.00537,-0.00537,0.04077
1404.051,0.98779,-0.00854,0.04883
1404.97,0.96899,0.00342,0.05029
1405.889,0.97217,0.00488,0.04834
1406.808,0.98071,0.00879,0.04419
1407.73,0.97876,0.00708,0.052
1408.649,0.99365,-0.00244,0.05811
1409.568,1.00195,-0.00854,0.06177
1410.494,0.99731,-0.01001,0.0564
1411.413,0.98096,-0.00439,0.05493
1412.331,0.98096,-0.00439,0.05493
1413.254,0.96045,0.00464,0.06274
1414.173,0.95898,0.00757,0.0603
1415.091,0.98022,0.01099,0.05786
1416.01,0.99805,0.00464,0.05225
1416.929,1.00415,-0.00366,0.03906
1417.848,0.99121,-0.00415,0.03687
1418.767,0.97021,-0.00293,0.04199
1419.691,0.97168,0.01025,0.05127
1420.609,0.97827,0.01172,0.06299
1421.528,0.98657,0.00488,0.05811
1422.454,1.00171,-0.00024,0.04761
1423.373,1.00391,0.0,0.0498
1424.291,1.00391,0.0,0.0498
1425.21,0.97388,0.00439,0.05371
1426.129,0.95947,0.00195,0.06152
1427.051,0.97705,0.00122,0.06641
1427.97,1.0,-0.00244,0.05811
1428.889,1.00562,-0.00635,0.06079
1429.808,0.99561,-0.00464,0.0603
1430.73,0.98096,0.00146,0.05322
1431.649,0.96069,0.00732,0.05933
1432.568,0.96606,0.00854,0.05469
1433.494,0.98486,0.00464,0.05396
1434.413,0.99365,-0.00903,0.06226
1435.331,1.00562,-0.01904,0.06152
1436.254,1.00464,-0.01709,0.05933
1437.173,1.00464,-0.01709,0.05933
1438.091,0.97241,-0.00269,0.05884
1439.01,0.95264,0.00342,0.05566
1439.929,0.96924,0.00293,0.04761
1440.848,0.99536,0.00317,0.05615
1441.767,0.99854,0.0,0.06738
1442.691,0.98633,-0.00415,0.05396
1443.609,0.97925,0.00098,0.04761
1444.528,0.98584,0.00806,0.05127
1445.454,0.9895,0.0061,0.04883
1446.373,0.98315,0.00171,0.04834
1447.291,0.99414,-0.00854,0.04639
1448.21,0.99902,-0.00391,0.04688
1449.129,0.99902,-0.00391,0.04688
1450.051,0.99146,0.00854,0.05298
1450.97,0.9812,0.00146,0.05908
1451.889,0.9646,-0.00879,0.06079
1452.808,0.97754,-0.0022,0.05347
1453.73,1.00708,0.00391,0.05029
1454.649,0.99487,-0.00049,0.04639
1455.568,0.97021,0.00024,0.04565
1456.494,0.96216,0.01172,0.05273
1457.413,0.96729,0.01636,0.05444
1458.331,0.99048,0.00586,0.05249
1459.254,1.00684,-0.01147,0.04126
1460.173,1.00806,-0.01343,0.03418
1461.091,1.00806,-0.01343,0.03418
1462.01,1.00024,-0.00415,0.04224
1462.929,0.99121,-0.00098,0.0564
1463.848,0.97559,0.00439,0.06787
1464.767,0.96411,0.00635,0.06641
1465.691,0.979,0.00513,0.05957
1466.609,1.00732,0.00415,0.05835
1467.528,1.0061,0.0,0.0603
1468.454,0.99121,-0.00903,0.05054
1469.373,0.97754,-0.01074,0.04517
1470.291,0.9563,0.00024,0.05591
1471.21,0.96777,0.01392,0.06079
1472.129,0.98193,0.01489,0.05591
1473.051,0.98267,0.00537,0.05762
1473.97,0.98267,0.00537,0.05762
1474.889,1.00244,-0.00415,0.05859
1475.808,1.01001,-0.01025,0.0498
1476.73,0.9834,-0.00684,0.05103
1477.649,0.95508,-0.00439,0.05591
1478.568,0.96655,-0.00146,0.05396
1479.494,1.00269,0.00098,0.05176
1480.413,1.0022,-0.00366,0.05811
1481.331,0.97852,-0.00244,0.05273
1482.254,0.9624,0.00342,0.04297
1483.173,0.96118,0.00684,0.0459
1484.091,0.98242,0.00488,0.04736
1485.01,1.00342,-0.00195,0.05835
1485.929,1.00342,-0.00195,0.05835
1486.848,1.00928,-0.0083,0.05835
1487.767,1.00146,-0.00977,0.04639
1488.691,0.98242,-0.00342,0.05664
1489.609,0.9585,0.0061,0.0647
1490.528,0.95581,0.00757,0.05664
1491.454,0.98389,0.00122,0.05054
1492.373,1.01904,-0.00879,0.04639
1493.291,1.02344,-0.01514,0.04541
1494.21,0.98145,-0.00732,0.04663
1495.129,0.94702,0.0022,0.04785
1496.051,0.96655,0.01001,0.04907
1496.97,0.98975,0.00708,0.04883
1497.889,0.98975,0.00708,0.04883
1498.808,0.99048,-0.00562,0.05542
1499.73,0.99438,-0.00708,0.05249
1500.649,0.99902,-0.00146,0.04663
1501.568,0.99634,-0.00049,0.04932
1502.494,0.9729,-0.00391,0.04858
1503.413,0.95264,0.00049,0.04761
1504.331,0.97974,0.00635,0.05591
1505.254,1.00977,0.0022,0.05444
1506.173,1.00342,-0.00146,0.05127
1507.091,0.98193,0.00708,0.04321
1508.01,0.97168,0.01685,0.03979
1508.929,0.97559,0.0105,0.05249
1509.848,0.99048,-0.00513,0.05518
1510.767,0.99048,-0.00513,0.05518
1511.691,0.99878,-0.01587,0.05054
1512.609,0.98633,-0.01538,0.0459
1513.528,0.99097,-0.00439,0.04688
1514.454,0.9873,0.0083,0.05347
1515.373,0.95703,0.01074,0.06128
1516.291,0.95825,0.00708,0.05981
1517.21,0.99609,0.00317,0.05615
1518.129,1.0249,-0.00708,0.05859
1519.051,1.01025,-0.00757,0.06006
1519.97,0.97681,-0.00293,0.04785
1520.889,0.96509,-0.0022,0.03711
1521.808,0.97314,0.00562,0.05054
1522.73,0.97314,0.00562,0.05054
1523.649,0.9939,0.00415,0.06519
1524.568,0.99365,-0.00366,0.06543
1525.494,0.9895,-0.00098,0.0625
1526.413,1.0022,-0.00439,0.05908
1527.331,0.99121,-0.01221,0.05981
1528.254,0.96582,-0.01221,0.06226
1529.173,0.96265,-0.00488,0.05664
1530.091,0.98169,0.00537,0.0542
1531.01,1.00415,0.00513,0.0603
1531.929,1.01025,-0.00146,0.05371
1532.848,0.98633,-0.00342,0.04102
1533.767,0.96216,0.0022,0.04272
1534.691,0.96216,0.0022,0.04272
1535.609,0.97437,0.00977,0.0498
1536.528,0.98804,0.00122,0.05078
1537.454,0.99243,-0.00488,0.05078
1538.373,0.99707,-0.00342,0.04297
1539.291,0.98999,-0.00708,0.04419
1540.21,0.98413,-0.00146,0.05371
1541.129,0.96753,0.00757,0.05176
1542.051,0.96045,0.0083,0.04468
1542.97,0.99341,0.00098,0.0459
1543.889,1.01953,-0.0083,0.05981
1544.808,1.00195,-0.00659,0.05957
1545.73,0.97168,0.00659,0.04565
1546.649,0.94824,0.01685,0.04785
1547.568,0.94824,0.01685,0.04785
1548.494,0.95435,0.01538,0.06006
1549.413,0.9917,0.00122,0.06006
1550.331,1.00781,-0.00879,0.05054
1551.254,0.99561,-0.01392,0.04517
1552.173,0.99292,-0.01074,0.04736
1553.091,0.98438,-0.00073,0.05518
1554.01,0.95361,0.0083,0.06152
1554.929,0.95605,0.0105,0.05981
1555.848,0.9917,0.00537,0.06055
1556.767,1.00317,0.00171,0.06616
1557.691,0.99414,0.00049,0.05469
1558.609,0.98486,0.00244,0.04199
1559.528,0.98486,0.00244,0.04199
1560.454,0.9751,0.00415,0.04492
1561.373,0.98291,0.00073,0.05688
1562.291,0.99829,-0.00684,0.05859
1563.21,0.99097,-0.00806,0.05542
1564.129,0.98169,-0.00464,0.05884
1565.051,0.98438,0.0022,0.05957
1565.97,0.98755,0.00732,0.05884
1566.889,0.9834,-0.00024,0.0542
1567.808,0.96973,-0.00244,0.04956
1568.73,0.98877,-0.0022,0.05176
1569.649,1.01465,-0.00635,0.06299
1570.568,0.98682,-0.00391,0.05859
1571.494,0.98682,-0.00391,0.05859
1572.413,0.95776,0.00049,0.04175
1573.331,0.96289,0.00708,0.04395
1574.254,0.97046,0.0105,0.05615
1575.173,0.99072,0.0,0.05298
1576.091,1.00269,-0.01245,0.0459
1577.01,0.99536,-0.01172,0.0459
1577.929,0.9939,-0.00269,0.05249
1578.848,0.97852,0.00195,0.06128
1579.767,0.9563,0.00146,0.06079
1580.691,0.96313,0.0022,0.05444
1581.609,0.99023,0.00171,0.05347
1582.528,1.00439,-0.00171,0.06152
1583.454,0.99487,0.00024,0.05273
1584.373,0.99487,0.00024,0.05273
1585.291,0.96704,0.00146,0.0415
1586.21,0.95972,0.00513,0.04004
1587.129,0.99023,0.00366,0.0459
1588.051,1.00464,-0.00366,0.05371
1588.97,0.98706,-0.0061,0.0481
1589.889,0.9812,-0.00488,0.04956
1590.808,0.98828,-0.00146,0.05884
1591.73,0.98389,0.00171,0.05859
1592.649,0.97656,-0.00391,0.04956
1593.568,0.97705,-0.00879,0.0498
1594.494,0.98999,-0.00659,0.05493
1595.413,1.0061,-0.00732,0.05249
1596.331,1.0061,-0.00732,0.05249
1597.254,0.98364,-0.00195,0.04883
1598.173,0.94385,0.00757,0.0481
1599.091,0.9624,0.01343,0.04639
1600.01,0.99634,0.00513,0.05249
1600.929,0.99487,-0.00464,0.05493
1601.848,0.99829,-0.00732,0.04126
1602.767,0.99634,-0.00269,0.03711
1603.691,0.9917,0.00439,0.04785
1604.609,0.98169,0.01392,0.0481
1605.528,0.9502,0.01831,0.04932
1606.454,0.95288,0.00439,0.0625
1607.373,1.00122,-0.00854,0.06177
1608.291,1.00122,-0.00854,0.06177
1609.21,1.01392,-0.01147,0.05298
1610.129,0.98853,-0.0127,0.04907
1611.051,0.96875,-0.00586,0.04492
1611.97,0.97241,0.00513,0.04688
1612.889,1.00195,0.00391,0.05762
1613.808,1.00781,-0.00342,0.06396
1614.73,0.98096,-0.00513,0.05396
1615.649,0.97314,0.00195,0.0542
1616.568,0.99072,0.01343,0.06274
1617.494,0.98657,0.00879,0.06348
1618.413,0.979,0.00122,0.0498
1619.331,0.99072,-0.00195,0.04688
1620.254,1.00269,-0.00488,0.06421
1621.173,1.00269,-0.00488,0.06421
1622.091,0.99951,0.00098,0.07373
1623.01,0.97656,0.00049,0.06592
1623.929,0.95923,-0.00195,0.04492
1624.848,0.97412,0.00317,0.03833
1625.767,1.00415,0.0,0.04492
1626.691,1.00806,-0.01392,0.05469
1627.609,0.99731,-0.01099,0.05054
1628.528,0.98926,0.00146,0.04126
1629.454,0.9834,0.00781,0.05103
1630.373,0.97412,0.01147,0.06616
1631.291,0.97192,0.00708,0.06055
1632.21,0.99512,-0.0061,0.0498
1633.129,0.99512,-0.0061,0.0498
1634.051,1.0083,-0.01025,0.04663
1634.97,0.99341,-0.00195,0.04297
1635.889,0.97119,-0.00244,0.04419
1636.808,0.96045,-0.00122,0.04639
1637.73,0.96899,0.00244,0.0564
1638.649,0.99902,0.0022,0.05957
1639.568,1.00439,0.0022,0.06177
1640.494,0.97827,0.00098,0.06152
1641.413,0.98315,-0.00317,0.04834
1642.331,0.98975,-0.00684,0.04932
1643.254,0.97754,-0.00317,0.05469
1644.173,0.96948,-0.00122,0.04663
1645.091,0.96948,-0.00122,0.04663
1646.01,0.98145,-0.00098,0.04492
1646.929,0.99902,-0.00098,0.05908
1647.848,0.99487,-0.00195,0.0647
1648.767,0.96753,-0.00049,0.05933
1649.691,0.95459,0.0061,0.05615
1650.609,0.98779,0.00293,0.05322
1651.528,1.0105,-0.00537,0.05688
1652.454,1.00195,-0.00928,0.05737
1653.373,0.98145,-0.00854,0.04907
1654.291,0.9646,0.00317,0.0542
1655.21,0.97461,0.0105,0.06323
1656.129,0.9812,0.00757,0.05762
1657.051,0.9707,-0.00317,0.05054
1657.97,0.9707,-0.00317,0.05054
1658.889,0.99316,-0.00903,0.04932
1659.808,1.02832,-0.00562,0.0481
1660.73,1.00439,-0.00049,0.06323
1661.649,0.95972,-0.00073,0.06396
1662.568,0.96265,0.00073,0.04785
1663.494,0.98169,0.00903,0.05078
1664.413,0.99023,0.00171,0.0603
1665.331,0.99072,-0.00488,0.0542
1666.254,0.97266,0.00073,0.0459
1667.173,0.9751,0.00171,0.04761
1668.091,0.98877,0.00562,0.05078
1669.01,0.97607,-0.00122,0.05957
1669.929,0.97607,-0.00122,0.05957
1670.848,0.97534,-0.01025,0.05688
1671.767,0.99854,-0.00024,0.05054
1672.691,1.00952,0.00269,0.04956
1673.609,0.99048,-0.00244,0.04858
1674.528,0.96143,-0.00464,0.0415
1675.454,0.96289,-0.00269,0.03955
1676.373,0.99463,-0.00879,0.04883
1677.291,1.00757,-0.0127,0.04712
1678.21,0.98706,-0.00464,0.04443
1679.129,0.96826,0.00708,0.05884
1680.051,0.97949,0.01318,0.07104
1680.97,0.97778,0.00732,0.06641
1681.889,0.97778,0.00732,0.06641
1682.808,0.96094,-0.00098,0.06519
1683.73,0.96924,-0.00854,0.0603
1684.649,1.00439,-0.00464,0.05103
1685.568,1.02271,-0.00977,0.05249
1686.494,0.99878,-0.01074,0.05078
1687.413,0.9668,-0.00244,0.04199
1688.331,0.96777,0.00293,0.05103
1689.254,0.99292,0.00586,0.07129
1690.173,0.99316,0.00342,0.07153
1691.091,0.98462,-0.00244,0.05981
1692.01,0.99341,-0.00684,0.05566
1692.929,1.00146,-0.00146,0.05835
1693.848,0.98462,0.00073,0.06909
1694.767,0.98462,0.00073,0.06909
1695.691,0.95752,0.00049,0.06567
1696.609,0.96411,-0.0022,0.05371
1697.528,0.99634,0.00073,0.05493
1698.454,1.01587,-0.00269,0.0603
1699.373,0.99951,-0.00806,0.05884
1700.291,0.96313,-0.00391,0.04712
1701.21,0.96802,-0.00244,0.04199
1702.129,1.00366,-0.00439,0.05005
1703.051,1.00806,-0.01196,0.05762
1703.97,0.99292,-0.01685,0.04932
1704.889,0.97266,-0.00879,0.04443
1705.808,0.96826,0.00952,0.0564
1706.73,0.96826,0.00952,0.0564
1707.649,0.97363,0.01538,0.06958
1708.568,0.96362,0.00757,0.06104
1709.494,0.9812,0.0,0.04492
1710.413,1.01685,-0.01025,0.04517
1711.331,1.0127,-0.01074,0.04932
1712.254,0.97559,-0.00391,0.052
1713.173,0.95557,0.01001,0.04297
1714.091,0.96948,0.01709,0.04102
1715.01,0.98804,0.00415,0.05591
1715.929,1.00195,-0.00415,0.05273
1716.848,0.99731,-0.01025,0.03784
1717.767,0.99414,-0.00488,0.03687
1718.691,0.99414,-0.00488,0.03687
1719.609,1.00293,0.00293,0.04346
1720.528,0.97217,-0.0022,0.05298
1721.454,0.93994,-0.00342,0.06226
1722.373,0.96729,0.00049,0.05518
1723.291,1.00195,-0.00391,0.05469
1724.21,1.00513,-0.0083,0.05542
1725.129,0.97974,-0.00488,0.04541
1726.051,0.95728,-0.00342,0.0376
1726.97,0.97998,-0.00659,0.04077
1727.889,1.00146,-0.00879,0.05225
1728.808,0.99634,-0.00562,0.05298
1729.73,0.97852,-0.00098,0.05273
1730.649,0.97168,0.00586,0.05859
1731.568,0.97168,0.00586,0.05859
1732.494,0.98413,0.00244,0.06128
1733.413,0.98657,-0.00537,0.05591
1734.331,0.97485,-0.00659,0.052
1735.254,0.98022,-0.00244,0.04858
1736.173,0.99927,-0.00024,0.05566
1737.091,0.99316,-0.00391,0.07544
1738.01,0.96167,-0.00879,0.05786
1738.929,0.95239,-0.00586,0.03711
1739.848,0.97314,0.00293,0.05298
1740.767,0.9939,0.00562,0.06104
1741.691,0.99658,0.00024,0.04956
1742.609,0.9917,-0.00903,0.04272
1743.528,0.9917,-0.00903,0.04272
1744.454,0.98853,-0.01245,0.05249
1745.373,0.98682,-0.00439,0.06274
1746.291,0.96973,0.00317,0.0708
1747.21,0.95044,0.00464,0.06519
1748.129,0.97021,0.00903,0.05029
1749.051,1.0,-0.00195,0.05273
1749.97,1.00781,-0.00879,0.05029
1750.889,0.98486,-0.00854,0.04004
1751.808,0.96558,-0.01172,0.04175
1752.73,0.97778,-0.00195,0.04932
1753.649,0.99194,0.00024,0.05835
1754.568,0.99902,-0.00073,0.06152
1755.494,0.99438,0.00732,0.05688
1756.413,0.99438,0.00732,0.05688
1757.331,0.98682,0.01172,0.05591
1758.254,0.9834,0.01245,0.05981
1759.173,0.9729,0.0061,0.06641
1760.091,0.96436,-0.00073,0.06152
1761.01,0.98242,-0.00195,0.04688
1761.929,1.01465,-0.00146,0.04517
1762.848,1.00586,-0.01025,0.04346
1763.767,0.95923,-0.00488,0.0376
1764.691,0.94751,0.01904,0.03711
1765.609,0.9834,0.01807,0.04663
1766.528,1.01147,0.00146,0.05859
1767.454,1.01001,-0.00806,0.05347
1768.373,1.01001,-0.00806,0.05347
1769.291,0.99316,-0.0083,0.03589
1770.21,0.98511,-0.00024,0.04321
1771.129,0.98315,0.0083,0.06201
1772.051,0.97119,0.00342,0.05933
1772.97,0.97021,-0.00073,0.04956
1773.889,0.98608,0.00317,0.05542
1774.808,0.99463,0.00757,0.06201
1775.73,0.98218,0.00073,0.05811
1776.649,0.97314,-0.00439,0.04834
1777.568,0.98462,-0.00244,0.03906
1778.494,1.00293,-0.00171,0.04541
1779.413,1.00708,0.00244,0.06128
1780.331,1.00708,0.00244,0.06128
1781.254,0.99072,-0.00098,0.07129
1782.173,0.97559,0.00317,0.06177
1783.091,0.97949,0.00854,0.05664
1784.01,0.99243,0.00269,0.05835
1784.929,0.97998,-0.00049,0.0542
1785.848,0.97192,-0.00391,0.04541
1786.767,0.98389,-0.01025,0.04297
1787.691,0.9895,-0.01099,0.05347
1788.609,0.97803,-0.00049,0.05737
1789.528,0.95654,0.00684,0.05225
1790.454,0.96875,-0.00244,0.04736
1791.373,1.00537,-0.00879,0.04956
1792.291,1.01196,-0.00952,0.04761
1793.21,1.01196,-0.00952,0.04761
1794.129,0.99658,-0.0105,0.04492
1795.051,0.9873,-0.00537,0.04468
1795.97,0.97241,0.00464,0.05933
1796.889,0.96851,0.00757,0.07007
1797.808,0.97314,0.00952,0.0603
1798.73,0.97363,0.00928,0.04736
1799.649,0.99414,0.00171,0.04346
1800.568,1.00537,-0.00439,0.04614
1801.494,0.98877,-0.00977,0.04077
1802.413,0.97583,-0.00659,0.04199
1803.331,0.96826,0.00195,0.05469
1804.254,0.97437,0.00879,0.06738
1805.173,0.97437,0.00879,0.06738
1806.091,0.99097,0.00464,0.06909
1807.01,0.9939,-0.00342,0.06006
1807.929,0.98779,-0.0083,0.0542
1808.848,0.99316,-0.01001,0.05225
1809.767,0.98022,-0.00122,0.05371
1810.691,0.96045,0.00562,0.06641
1811.609,0.97388,-0.00195,0.06665
1812.528,0.99658,-0.00391,0.05688
1813.454,0.99219,0.00269,0.05615
1814.373,0.9646,0.00244,0.04663
1815.291,0.95825,0.01318,0.04028
1816.21,0.98193,0.01514,0.04688
1817.129,0.98193,0.01514,0.04688
1818.051,1.00464,-0.00269,0.05371
1818.97,1.00879,-0.01001,0.05542
1819.889,0.99976,-0.00513,0.04468
1820.808,0.9834,-0.00098,0.04858
1821.73,0.9707,0.01001,0.0686
1822.649,0.97437,0.0166,0.06665
1823.568,0.99048,0.01025,0.05493
1824.494,0.99463,0.00757,0.04639
1825.413,0.98877,0.00317,0.05054
1826.331,0.98315,-0.00098,0.05713
1827.254,0.96851,-0.00146,0.05542
1828.173,0.96606,0.00195,0.04443
1829.091,0.98657,0.00269,0.04175
1830.01,0.98657,0.00269,0.04175
1830.929,1.00415,-0.00342,0.05469
1831.848,0.99756,-0.00317,0.05591
1832.767,0.98999,0.00342,0.05103
1833.691,0.98975,0.00073,0.0498
1834.609,0.97729,-0.00098,0.05298
1835.528,0.98193,-0.00146,0.04565
1836.454,0.99121,0.00122,0.04297
1837.373,0.98901,0.00049,0.05786
1838.291,0.98267,0.00317,0.06006
1839.21,0.96436,0.01172,0.05835
1840.129,0.95581,0.0127,0.05786
